{
    "resourceType": "Immunization",
    "contained": [
      {
          "resourceType": "Practitioner",
          "id": "Pract1",
          "name": [
              {
                  "family": "Furlong",
                  "given": [
                      "Darren"
                  ]
              }
          ]
      },
      {
          "resourceType": "Patient",
          "id" : "Pat1",
          "identifier": [
              {
                  "system": "https://fhir.nhs.uk/Id/nhs-number",
                  "value": "{{$nhsNumber}}"
              }
          ],
          "name": [
              {
                  "family": "test1",
                  "given": [
                      "test2"
                  ]
              }
          ],
          "gender": "unknown",
          "birthDate": "1980-01-01",
          "address": [
              {
                  "use": "Home",
                  "type": "Postal",                
                  "text": "Validate Obf",
                  "line": ["1, obf_2"],
                  "city": "obf_3",
                  "district": "obf_4",
                  "state": "obf_5",
                  "postalCode": "LS01 1AB",
                  "country": "obf_7",
                  "period":   {
                      "start" : "2000-01-01", 
                      "end" : "2025-01-01"
                      }
              }
          ]
      }
    ],
    "extension": [
      {
        "url": "https://fhir.hl7.org.uk/StructureDefinition/Extension-UKCore-VaccinationProcedure",
        "valueCodeableConcept": {
          "coding": [
            {
              "system": "http://snomed.info/sct",
              "code": "1324681000000101",
              "display": "Administration of first dose of severe acute respiratory syndrome coronavirus 2 vaccine (procedure)"
            }
          ]
        }
      }
    ],
    "identifier": [
      {
        "system": "https://supplierABC/identifiers/vacc",
        "value": "{{$guid}}"
      }
    ],
    "status": "completed",
    "vaccineCode": {
      "coding": [
        {
          "system": "http://snomed.info/sct",
          "code": "39114911000001105",
          "display": "COVID-19 Vaccine Vaxzevria (ChAdOx1 S [recombinant]) not less than 2.5x100,000,000 infectious units/0.5ml dose suspension for injection multidose vials (AstraZeneca UK Ltd) (product)"
        }
      ]
    },
    "patient": {
      "reference" : "#Pat1"
    },
    "occurrenceDateTime": "2025-03-06T13:28:17.271+00:00",
    "recorded": "2025-03-06T13:28:17.271+00:00",
    "primarySource": true,
    "manufacturer": {
      "display": "AstraZeneca Ltd"
    },
    "location": {
      "identifier": {
        "value": "X99999",
        "system": "https://fhir.nhs.uk/Id/ods-organization-code",
        "use" : "official",
        "type" : {
            "coding" : [{
              "system": "http://terminology.hl7.org/CodeSystem/v2-0203",
              "version": "Test version",
              "code": "123456",
              "display": "Test display",
              "userSelected": true
              }],
              "text" : "test string Location"
        },
        "period" : {
          "start" : "2000-01-01", 
          "end" : "2025-01-01"
        }
      }
    },
    "lotNumber": "4120Z001",
    "expirationDate": "2025-07-02",
    "site": {
      "coding": [
        {
          "system": "http://snomed.info/sct",
          "code": "368208006",
          "display": "Left upper arm structure (body structure)"
        }
      ]
    },
    "route": {
      "coding": [
        {
          "system": "http://snomed.info/sct",
          "code": "78421000",
          "display": "Intramuscular route (qualifier value)"
        }
      ]
    },
    "doseQuantity": {
      "value": 0.5,
      "unit": "milliliter",
      "system": "http://unitsofmeasure.org",
      "code": "ml"
    },
    "performer": [
      {
          "actor": {
              "reference" : "#Pract1"
          }
      },
      {
          "actor" : {
              "type" : "Organization",
              "display": "UNIVERSITY HOSPITAL OF WALES",
              
              "identifier": {
                  "value": "B0C4P",
                  "system": "https://fhir.nhs.uk/Id/ods-organization-code",
                  "use" : "usual",
                  "type" : {
                      "coding" : [{
                          "system": "http://terminology.hl7.org/CodeSystem/v2-0203",
                          "version": "Test version performer",
                          "code": "123456",
                          "display": "Test display performer",
                          "userSelected": true
                          }],
                          "text" : "test string performer"
                  },
                  "period" : {
                      "start" : "2000-01-01", 
                      "end" : "2025-01-01"
                  }
                  }
          }
      }
    ],
    "reasonCode": [
      {
          "coding": [
              {
                  "code": "443684005",
                  "display": "Disease outbreak (event)",
                  "system": "http://snomed.info/sct"
              }
          ]
      }
    ],
    "protocolApplied": [
      {
          "targetDisease": [
              {
                  "coding": [
                      {
                          "system": "http://snomed.info/sct",
                          "code": "840539006",
                          "display": "Disease caused by severe acute respiratory syndrome coronavirus 2 (disorder)"
                      }
                  ]
              }
          ],
          "doseNumberPositiveInt": 11
      }
    ]
  }