{
    "resourceType": "Immunization",
    "contained": [
      {
          "resourceType": "Practitioner",
          "id": "Pract1",
          "name": [
              {
                  "family": "Smith",
                  "given": [
                      "John"
                  ]
              }
          ]
      },
      {
          "resourceType": "Patient",
          "id" : "Pat1",
          "identifier": [
              {
                  "system": "https://fhir.nhs.uk/Id/nhs-number",
                  "value": "{{$nhsNumber}}"
              }
          ],
          "name": [
              {
                  "family": "ReSerVer",
                  "given": [
                      "Sarah"
                  ]
              }
          ],
          "gender": "unknown",
          "birthDate": "1965-02-28",
          "address": [
              {
                  "use": "Home",
                  "type": "Postal",                
                  "text": "Validate Obf",
                  "line": ["1, obf_2"],
                  "city": "obf_3",
                  "district": "obf_4",
                  "state": "obf_5",
                  "postalCode": "LS01 1AB",
                  "country": "obf_7",
                  "period":   {
                      "start" : "2000-01-01", 
                      "end" : "2025-01-01"
                      }
              }
          ]
      }
    ],
    "extension": [
      {
        "url": "https://fhir.hl7.org.uk/StructureDefinition/Extension-UKCore-VaccinationProcedure",
        "valueCodeableConcept": {
          "coding": [
            {
              "system": "http://snomed.info/sct",
              "code": "956951000000104",
              "display": "RSV vaccination in pregnancy (procedure)"
            }
          ]
        }
      }
    ],
    "identifier": [
      {
        "system": "https://supplierABC/identifiers/vacc",
        "value": "{{$guid}}"
      }
    ],
    "status": "completed",
    "vaccineCode": {
      "coding": [
        {
          "system": "http://snomed.info/sct",
          "code": "42223111000001107",
          "display": "Quadrivalent influenza vaccine (split virion inactivated) suspension for injection 0.5ml pre-filled syringes (Sanofi Pasteur)"
        }
      ]
    },
    "patient": {
      "reference" : "#Pat1"
    },
    "occurrenceDateTime": "2025-03-12T13:28:17.271+00:00",
    "recorded": "2025-03-12", 
    "primarySource": true,
    "manufacturer": {
      "display": "Sanofi Pasteur"
    },
    "location": {
      "identifier": {
        "value": "X99999",
        "system": "https://fhir.nhs.uk/Id/ods-organization-code",
        "use" : "official",
        "type" : {
            "coding" : [{
              "system": "http://terminology.hl7.org/CodeSystem/v2-0203",
              "version": "Test version",
              "code": "123456",
              "display": "Test display",
              "userSelected": true
              }],
              "text" : "test string Location"
        },
        "period" : {
          "start" : "2000-01-01", 
          "end" : "2025-01-01"
        }
      }
    },
    "lotNumber": "BN92478105653",
    "expirationDate": "2025-07-02",
    "site": {
      "coding": [
        {
          "system": "http://snomed.info/sct",
          "code": "368209003",
          "display": "Right arm"
        }
      ]
    },
    "route": {
      "coding": [
        {
          "system": "http://snomed.info/sct",
          "code": "1210999013",
          "display": "Intradermal use"
        }
      ]
    },
    "doseQuantity": {
      "value": 0.3,
      "unit": "Inhalation - unit of product usage",
      "system": "http://snomed.info/sct",
      "code": "2622896019"
    },
    "performer": [
      {
          "actor": {
              "reference" : "#Pract1"
          }
      },
      {		
          "actor" : {
              "type" : "Organization",
              "display": "LGI Leeds",
              
              "identifier": {
                  "value": "B0C4P",
                  "system": "https://fhir.nhs.uk/Id/ods-organization-code",
                  "use" : "usual",
                  "type" : {
                      "coding" : [{
                          "system": "http://terminology.hl7.org/CodeSystem/v2-0203",
                          "version": "Test version performer",
                          "code": "123456",
                          "display": "Test display performer",
                          "userSelected": true
                          }],
                          "text" : "test string performer"
                  },
                  "period" : {
                      "start" : "2000-01-01", 
                      "end" : "2025-01-01"
                  }
                  }
          }		
          
      }	
    ],
    "reasonCode": [
      {
          "coding": [
              {
                  "code": "1037351000000105",
                  "display": "Disease outbreak (event)",
                  "system": "http://snomed.info/sct"
              }
          ]
      }
    ],
    "protocolApplied": [
      {
          "targetDisease": [
              {
                  "coding": [
                      {
                          "system": "http://snomed.info/sct",
                          "code": "55735004",
                          "display": "Respiratory syncytial virus infection (disorder)"
                      }
                  ]
              }
          ],
          "doseNumberPositiveInt": 1
      }
    ]
  }